Folder: MSE2001python/module_examples/HW/HW4/xrd_data (part 2)

File: tioga1_90-120.csv
2.00,305,284,265,323,348
2.12,289,258,261,316,332
2.24,238,256,260,257,271
2.36,264,252,193,221,210
2.48,229,211,221,215,198
2.60,171,205,175,205,179
2.72,187,211,165,187,153
2.84,192,196,136,149,127
2.96,171,215,143,138,143
3.08,157,161,158,137,121
3.20,177,171,145,149,113
3.32,162,185,131,117,95
3.44,182,165,149,117,105
3.56,143,167,117,80,100
3.68,135,155,124,94,71
3.80,127,153,113,87,86
3.92,153,147,110,99,74
4.04,115,143,100,86,68
4.16,113,135,109,82,79
4.28,104,131,95,77,67
4.40,119,122,90,90,61
4.52,82,101,82,83,64
4.64,94,97,66,70,55
4.76,98,96,91,58,53
4.88,90,98,69,78,61
5.00,97,104,75,57,66
5.12,90,106,63,67,46
5.24,96,105,80,59,49
5.36,108,104,62,42,56
5.48,91,101,60,58,46
5.60,88,93,75,56,57
5.72,85,97,85,60,52
5.84,86,123,75,56,49
5.96,112,117,69,61,58
6.08,127,135,63,47,47
6.20,121,174,77,53,45
6.32,126,174,72,56,46
6.44,145,159,93,47,54
6.56,121,171,86,65,51
6.68,123,159,91,56,52
6.80,150,179,111,62,61
6.92,159,195,105,66,46
7.04,173,208,133,65,47
7.16,158,218,118,64,63
7.28,200,240,116,83,57
7.40,222,265,114,63,56
7.52,255,302,155,82,68
7.64,281,304,162,68,71
7.76,299,304,192,111,96
7.88,294,301,238,128,89
8.00,333,346,237,145,154
8.12,352,326,282,184,194
8.24,395,334,282,206,191
8.36,397,323,324,262,266
8.48,457,344,328,366,422
8.60,463,341,394,519,650
8.72,479,351,382,726,898
8.84,450,285,338,653,617
8.96,336,245,253,410,330
9.08,262,216,186,282,187
9.20,228,151,155,175,82
9.32,177,155,108,104,67
9.44,181,105,101,100,58
9.56,136,123,110,76,33
9.68,159,97,99,63,36
9.80,119,111,88,40,34
9.92,137,104,95,38,23
10.04,115,108,79,39,33
10.16,115,96,87,35,18
10.28,112,83,98,29,22
10.40,113,93,89,24,25
10.52,112,116,102,31,29
10.64,128,82,73,42,14
10.76,134,78,88,37,11
10.88,118,92,87,26,13
11.00,157,96,100,34,13
11.12,154,97,97,20,17
11.24,148,90,101,22,14
11.36,133,96,115,27,19
11.48,146,107,110,29,19
11.60,153,100,111,21,12
11.72,121,92,98,26,14
11.84,136,115,100,14,12
11.96,156,117,101,24,12
12.08,111,122,101,23,9
12.20,127,103,78,21,10
12.32,115,93,74,22,20
12.44,102,87,64,20,11
12.56,80,66,71,13,12
12.68,58,67,45,21,10
12.80,53,63,47,11,10
12.92,43,59,34,17,11
13.04,25,58,25,19,18
13.16,46,32,23,20,21
13.28,28,33,17,15,13
13.40,15,37,25,21,11
13.52,26,33,20,6,11
13.64,19,28,17,22,17
13.76,22,25,18,15,17
13.88,23,22,19,17,18
14.00,19,27,15,18,18
14.12,21,25,15,12,13
14.24,21,16,15,13,13
14.36,16,15,17,15,10
14.48,12,19,21,16,15
14.60,8,12,18,13,13
14.72,11,22,16,13,17
14.84,10,12,6,21,15
14.96,17,21,8,17,12
15.08,12,18,16,14,15
15.20,9,15,13,11,19
15.32,11,13,6,16,15
15.44,7,27,11,12,15
15.56,13,20,14,16,20
15.68,11,16,9,20,22
15.80,12,19,14,16,20
15.92,22,20,9,15,19
16.04,16,9,13,23,12
16.16,14,9,16,12,19
16.28,10,9,16,22,14
16.40,14,17,11,14,18
16.52,17,12,17,18,14
16.64,13,22,13,17,15
16.76,12,17,14,17,18
16.88,14,20,22,8,21
17.00,15,21,24,22,17
17.12,9,14,19,13,25
17.24,15,19,27,26,28
17.36,19,17,15,17,26
17.48,18,20,18,20,25
17.60,25,18,20,22,33
17.72,26,20,16,32,20
17.84,24,18,21,25,19
17.96,18,22,20,27,19
18.08,12,32,17,16,22
18.20,20,19,21,17,24
18.32,29,33,18,13,22
18.44,18,32,22,10,24
18.56,22,20,24,18,29
18.68,23,22,23,26,20
18.80,22,22,26,23,22
18.92,28,18,13,26,22
19.04,25,23,21,19,23
19.16,19,15,13,28,23
19.28,17,21,14,25,35
19.40,18,27,23,23,23
19.52,24,22,27,20,35
19.64,18,17,23,23,26
19.76,17,21,23,24,19
19.88,14,23,25,26,26
20.00,26,24,20,26,25
20.12,31,40,20,19,27
20.24,31,35,20,24,30
20.36,19,33,36,29,27
20.48,18,29,26,26,35
20.60,25,26,17,24,32
20.72,23,30,12,20,25
20.84,31,37,37,28,25
20.96,29,24,30,32,32
21.08,38,31,35,30,31
21.20,24,33,26,23,40
21.32,25,26,30,28,23
21.44,30,26,36,30,41
21.56,32,28,34,18,27
21.68,42,31,28,37,34
21.80,32,37,36,23,35
21.92,33,27,32,34,30
22.04,30,34,38,24,39
22.16,36,28,38,22,28
22.28,42,31,36,28,31
22.40,33,33,43,36,30
22.52,36,44,28,27,31
22.64,37,38,25,28,40
22.76,48,52,30,23,36
22.88,53,50,39,28,39
23.00,37,42,39,33,31
23.12,42,44,43,28,42
23.24,38,53,53,36,29
23.36,50,62,48,30,28
23.48,45,64,43,34,36
23.60,56,61,40,33,34
23.72,50,82,43,35,47
23.84,46,66,48,39,39
23.96,44,100,45,39,39
24.08,59,86,53,41,29
24.20,76,110,65,37,30
24.32,83,87,64,45,45
24.44,63,85,62,45,42
24.56,90,103,77,46,37
24.68,86,108,90,31,44
24.80,107,114,82,44,45
24.92,102,125,86,53,42
25.04,100,111,86,49,47
25.16,109,122,76,73,71
25.28,98,112,93,56,57
25.40,112,102,85,64,63
25.52,122,105,76,60,64
25.64,121,117,73,63,58
25.76,127,139,74,52,59
25.88,139,148,83,57,67
26.00,174,170,99,71,72
26.12,202,181,105,93,87
26.24,187,200,131,106,92
26.36,209,189,177,121,134
26.48,200,179,183,226,230
26.60,191,161,217,262,330
26.72,180,132,187,330,362
26.84,131,89,137,222,321
26.96,83,80,92,152,218
27.08,83,68,54,102,94
27.20,51,51,63,76,79
27.32,58,70,49,71,76
27.44,61,46,60,47,56
27.56,57,39,45,36,47
27.68,51,49,47,38,49
27.80,50,42,36,36,52
27.92,40,51,40,38,32
28.04,53,49,41,35,35
28.16,41,43,34,28,24
28.28,34,26,39,36,37
28.40,42,30,37,33,36
28.52,37,33,44,34,40
28.64,35,33,25,31,32
28.76,39,30,24,25,29
28.88,35,26,18,37,34
29.00,31,32,32,34,33
29.12,30,27,45,41,35
29.24,20,30,26,35,28
29.36,32,39,28,34,18
29.48,34,23,25,27,22
29.60,22,28,26,27,27
29.72,27,24,21,29,25
29.84,23,33,23,25,28
29.96,26,32,31,29,22
30.00,20,35,23,21,19