Folder: MSE2001python/module_examples/HW/HW4/xrd_data

Note: README.md
# MSE2001python
Files for the MSE2001 course Introduction to Python for Materials Engineers

The whole course can be watched at the following YouTube playlist 
https://youtu.be/aoL3whRmSfc 

[![Final video of fixing issues in your code in VS Code]
(https://img.youtube.com/vi/aoL3whRmSfc/maxresdefault.jpg)]
(https://www.youtube.com/watch?v=aoL3whRmSfc)

File: tioga1_0-8.csv
2,224,204,263,223,223
2.12,188,183,179,198,234
2.24,172,160,191,187,214
2.36,172,149,174,178,202
2.48,192,140,180,166,172
2.6,156,143,147,171,155
2.72,139,115,160,153,137
2.84,138,123,131,119,143
2.96,134,153,142,121,121
3.08,135,110,126,130,132
3.2,134,104,127,127,100
3.32,144,120,124,101,92
3.44,138,113,133,104,114
3.56,135,115,119,102,100
3.68,114,109,106,98,84
3.8,132,99,106,73,109
3.92,124,111,127,76,77
4.04,107,85,105,81,94
4.16,105,89,92,60,95
4.28,86,81,99,71,82
4.4,87,93,92,88,75
4.52,71,65,90,66,77
4.64,70,75,75,64,65
4.76,85,82,91,72,70
4.88,77,80,73,59,66
5,69,75,63,61,64
5.12,84,76,93,61,48
5.24,89,84,79,55,59
5.36,90,81,86,60,49
5.48,108,89,90,54,60
5.6,98,111,74,59,58
5.72,136,118,100,75,57
5.84,188,129,90,66,52
5.96,191,168,130,61,49
6.08,307,224,161,52,57
6.2,377,324,216,50,54
6.32,320,412,254,65,47
6.44,225,289,232,79,59
6.56,174,183,226,78,55
6.68,165,162,186,95,55
6.8,164,163,172,84,68
6.92,134,137,146,96,49
7.04,146,142,143,112,78
7.16,143,159,162,84,68
7.28,146,150,151,103,75
7.4,161,144,151,107,79
7.52,148,136,137,120,82
7.64,144,129,145,152,110
7.76,121,123,129,142,132
7.88,163,157,136,159,165
8,122,148,151,206,157
8.12,131,133,149,239,230
8.24,144,136,173,264,228
8.36,146,135,157,215,267
8.48,122,147,150,256,402
8.6,142,145,152,298,461
8.72,166,173,158,320,508
8.84,137,131,141,246,486
8.96,103,103,121,160,297
9.08,118,110,97,121,149
9.2,80,61,99,107,116
9.32,72,79,87,78,81
9.44,75,63,78,77,54
9.56,66,70,62,74,52
9.68,61,63,70,50,48
9.8,68,46,65,46,31
9.92,61,58,70,56,37
10.04,64,59,66,49,27
10.16,57,40,53,56,25
10.28,58,47,54,37,22
10.4,70,47,73,42,32
10.52,59,77,56,42,26
10.64,66,56,60,52,18
10.76,57,40,69,45,17
10.88,65,36,78,60,15
11,58,56,57,50,15
11.12,62,46,76,44,12
11.24,61,42,49,52,9
11.36,76,50,62,40,8
11.48,67,60,53,51,20
11.6,67,76,71,73,11
11.72,71,72,58,66,15
11.84,66,62,82,68,10
11.96,104,89,55,63,9
12.08,87,65,89,70,15
12.2,80,77,69,80,14
12.32,95,83,77,89,15
12.44,74,82,54,69,8
12.56,65,83,60,60,9
12.68,45,67,33,55,8
12.8,46,41,43,43,11
12.92,28,50,41,29,13
13.04,31,38,23,29,13
13.16,23,32,19,23,9
13.28,24,22,22,24,6
13.4,21,28,23,15,5
13.52,24,16,22,14,13
13.64,16,22,19,12,13
13.76,19,21,13,6,6
13.88,14,21,17,18,10
14,15,12,17,16,13
14.12,10,20,13,13,11
14.24,13,20,10,14,9
14.36,14,20,11,11,5
14.48,11,10,15,17,12
14.6,13,10,12,11,12
14.72,13,18,9,8,10
14.84,12,10,11,7,7
14.96,12,10,14,8,9
15.08,10,18,11,11,17
15.2,7,10,14,4,11
15.32,3,16,9,8,6
15.44,15,9,13,15,4
15.56,8,7,12,11,10
15.68,12,11,13,3,13
15.8,10,10,11,7,10
15.92,9,8,6,5,13
16.04,8,11,10,9,10
16.16,9,10,13,8,10
16.28,7,13,6,14,20
16.4,9,11,7,7,8
16.52,11,12,6,7,6
16.64,13,12,11,6,9
16.76,7,5,7,6,4
16.88,10,17,16,7,14
17,16,15,12,3,11
17.12,17,16,8,13,6
17.24,9,15,11,8,11
17.36,14,12,15,17,12
17.48,11,14,15,13,11
17.6,12,24,18,14,24
17.72,23,12,17,11,19
17.84,15,14,13,16,22
17.96,20,31,18,14,9
18.08,19,25,18,12,8
18.2,23,18,14,7,10
18.32,31,25,28,7,12
18.44,16,24,17,18,13
18.56,20,18,19,14,13
18.68,16,22,13,11,14
18.8,25,29,24,10,7
18.92,17,36,15,9,8
19.04,20,22,17,6,15
19.16,13,17,13,8,18
19.28,10,18,12,13,16
19.4,15,10,18,12,12
19.52,17,16,15,12,6
19.64,12,16,14,8,21
19.76,21,10,23,19,18
19.88,19,27,15,5,13
20,16,22,20,10,14
20.12,16,21,22,15,16
20.24,16,16,17,14,7
20.36,20,24,11,15,13
20.48,13,21,14,14,14
20.6,23,16,17,12,12
20.72,14,32,24,15,14
20.84,24,30,22,24,19
20.96,26,32,29,23,23
21.08,17,32,22,18,18
21.2,15,23,26,15,17
21.32,20,22,9,17,16
21.44,20,20,17,14,18
21.56,22,17,24,10,13
21.68,16,20,19,15,8
21.8,12,24,14,13,18
21.92,25,29,22,23,21
22.04,39,26,19,24,28
22.16,19,25,23,19,17
22.28,14,25,17,14,20
22.4,17,26,23,23,14
22.52,26,22,16,16,12
22.64,19,28,22,19,18
22.76,18,33,24,15,15
22.88,27,26,26,17,14
23,21,32,24,13,14
23.12,21,30,23,23,19
23.24,34,24,27,20,23
23.36,36,27,36,26,17
23.48,28,42,36,29,23
23.6,40,51,36,39,14
23.72,38,54,35,34,17
23.84,44,41,29,30,23
23.96,35,53,28,27,20
24.08,41,57,42,25,11
24.2,35,66,49,31,21
24.32,51,41,44,32,32
24.44,46,71,49,53,25
24.56,62,58,42,40,26
24.68,65,76,46,60,18
24.8,79,79,57,56,33
24.92,88,83,63,69,16
25.04,86,108,71,67,30
25.16,84,127,69,64,27
25.28,71,108,66,72,38
25.4,87,96,73,84,46
25.52,74,100,71,57,44
25.64,80,98,71,65,60
25.76,74,88,71,62,46
25.88,80,95,76,48,50
26,93,99,66,54,43
26.12,91,78,74,70,53
26.24,88,103,85,108,71
26.36,111,111,83,107,89
26.48,115,119,116,110,127
26.6,110,130,124,165,190
26.72,112,123,118,174,243
26.84,70,88,75,96,170
26.96,52,41,52,76,94
27.08,52,53,35,60,89
27.2,45,39,38,41,66
27.32,30,31,33,42,48
27.44,45,34,32,38,62
27.56,47,42,49,42,40
27.68,32,40,47,56,43
27.8,38,46,35,36,45
27.92,31,28,49,38,56
28.04,49,47,62,53,44
28.16,24,37,37,29,35
28.28,21,28,27,18,21
28.4,26,26,30,24,31
28.52,29,26,18,26,27
28.64,25,20,21,18,26
28.76,10,19,19,23,24
28.88,23,24,13,19,18
29,17,17,14,13,21
29.12,14,23,25,13,16
29.24,19,16,19,10,17
29.36,20,22,20,16,12
29.48,21,24,20,17,10
29.6,13,19,20,23,19
29.72,23,21,23,14,16
29.84,27,25,26,21,18
29.96,21,18,21,16,20
30,16,14,15,6,11

File: tioga1_15-35.csv
2,285,205,276,281,177
2.12,251,197,237,272,175
2.24,219,203,199,255,186
2.36,213,174,202,215,170
2.48,193,147,172,206,163
2.6,188,150,159,173,166
2.72,228,151,166,189,147
2.84,166,156,132,164,157
2.96,147,158,118,163,159
3.08,131,129,147,158,117
3.2,133,132,130,161,135
3.32,144,109,138,112,119
3.44,129,106,136,112,111
3.56,144,107,111,135,94
3.68,147,146,102,109,111
3.8,126,109,112,110,102
3.92,141,97,110,109,98
4.04,121,109,100,119,97
4.16,115,104,89,112,89
4.28,114,105,92,104,92
4.4,111,78,97,79,64
4.52,105,91,104,85,93
4.64,113,91,96,96,74
4.76,111,78,86,101,72
4.88,108,77,87,81,71
5,117,104,98,80,73
5.12,107,103,107,85,71
5.24,114,97,101,87,59
5.36,121,121,93,86,73
5.48,171,123,118,94,71
5.6,203,149,139,81,75
5.72,297,218,187,90,64
5.84,324,253,215,91,74
5.96,450,331,240,99,52
6.08,636,445,373,99,73
6.2,1050,765,441,104,78
6.32,1114,1063,670,113,89
6.44,752,812,688,121,102
6.56,411,372,505,122,65
6.68,282,270,338,151,80
6.8,216,207,269,178,88
6.92,204,189,231,170,117
7.04,149,155,232,190,108
7.16,153,149,174,211,127
7.28,167,132,143,217,140
7.4,131,134,150,231,169
7.52,129,133,124,262,191
7.64,111,107,117,290,225
7.76,111,95,105,318,245
7.88,79,88,92,323,304
8,93,82,62,299,366
8.12,82,81,89,269,452
8.24,91,62,84,210,557
8.36,83,82,89,172,546
8.48,79,62,78,131,416
8.6,81,61,90,149,260
8.72,85,66,62,120,188
8.84,85,71,50,109,132
8.96,73,75,53,113,91
9.08,83,49,53,87,94
9.2,62,52,51,73,63
9.32,63,51,49,81,64
9.44,58,53,54,81,55
9.56,65,56,46,57,58
9.68,52,54,60,61,64
9.8,71,52,51,44,44
9.92,50,54,56,51,31
10.04,45,57,62,57,26
10.16,59,46,49,51,45
10.28,60,51,56,67,41
10.4,61,64,47,63,32
10.52,70,48,60,76,21
10.64,71,48,60,63,23
10.76,74,43,52,41,17
10.88,49,51,39,49,27
11,57,49,51,51,20
11.12,87,51,57,56,21
11.24,60,50,73,48,15
11.36,80,68,72,47,22
11.48,94,60,60,62,12
11.6,106,71,60,54,15
11.72,107,78,58,50,15
11.84,78,73,71,48,15
11.96,118,91,81,59,17
12.08,86,90,61,72,15
12.2,113,92,66,67,13
12.32,162,109,70,67,13
12.44,155,129,88,78,14
12.56,133,157,75,61,16
12.68,79,129,82,56,9
12.8,59,83,55,40,8
12.92,47,51,34,36,16
13.04,49,39,24,28,20
13.16,27,30,28,29,10
13.28,28,25,27,26,18
13.4,25,29,13,23,15
13.52,16,26,24,17,16
13.64,24,16,29,14,13
13.76,19,19,28,14,11
13.88,22,18,17,22,13
14,13,16,19,19,12
14.12,30,16,22,23,9
14.24,20,22,11,15,7
14.36,17,18,17,14,11
14.48,11,23,15,10,13
14.6,17,22,17,17,15
14.72,9,18,12,9,11
14.84,12,13,7,11,14
14.96,5,17,17,8,16
15.08,21,23,12,12,13
15.2,10,18,16,10,15
15.32,14,16,19,11,17
15.44,11,15,13,11,9
15.56,11,13,20,9,20
15.68,14,14,8,10,14
15.8,12,14,15,17,12
15.92,14,13,9,3,13
16.04,13,13,12,11,10
16.16,11,13,15,6,13
16.28,16,22,11,12,10
16.4,11,15,10,14,12
16.52,19,13,12,11,10
16.64,14,18,6,7,10
16.76,12,10,8,9,13
16.88,7,18,13,14,23
17,14,11,13,9,14
17.12,15,19,10,15,15
17.24,15,17,17,8,25
17.36,17,20,16,19,11
17.48,17,24,28,12,23
17.6,26,23,17,13,17
17.72,30,25,25,19,18
17.84,21,25,25,22,17
17.96,29,23,14,12,12
18.08,27,34,26,15,9
18.2,26,34,39,13,19
18.32,44,39,41,17,13
18.44,55,42,23,15,13
18.56,63,37,31,10,16
18.68,53,39,23,8,20
18.8,49,59,24,12,18
18.92,27,55,24,17,12
19.04,23,44,26,14,13
19.16,22,28,19,17,17
19.28,16,20,17,12,21
19.4,16,26,17,13,15
19.52,27,15,20,13,21
19.64,13,22,14,20,22
19.76,17,19,22,18,25
19.88,15,29,17,16,19
20,30,14,15,17,15
20.12,16,26,23,16,19
20.24,24,25,19,11,20
20.36,21,11,14,12,19
20.48,15,20,19,15,17
20.6,16,26,19,16,27
20.72,19,20,19,25,27
20.84,19,25,24,25,27
20.96,38,30,22,24,22
21.08,26,28,26,21,35
21.2,14,16,16,15,13
21.32,16,24,14,18,20
21.44,28,24,22,17,19
21.56,17,22,15,16,24
21.68,16,26,25,9,19
21.8,25,32,12,20,19
21.92,30,25,22,23,24
22.04,30,28,24,22,19
22.16,23,25,34,19,31
22.28,22,34,16,18,19
22.4,27,36,23,18,19
22.52,22,20,22,21,21
22.64,31,38,25,23,19
22.76,25,32,19,18,21
22.88,20,42,19,24,25
23,32,37,28,19,20
23.12,26,34,21,29,24
23.24,38,38,25,27,23
23.36,36,25,24,28,30
23.48,41,53,34,31,28
23.6,58,38,39,34,27
23.72,52,50,34,34,26
23.84,52,58,39,38,14
23.96,44,50,42,39,30
24.08,51,60,47,33,33
24.2,61,56,33,36,42
24.32,77,66,36,43,29
24.44,68,66,50,56,34
24.56,83,70,74,52,43
24.68,101,72,69,64,45
24.8,143,88,74,75,33
24.92,179,110,76,70,55
25.04,192,144,82,67,49
25.16,219,192,107,74,49
25.28,145,231,104,84,63
25.4,121,190,111,61,48
25.52,99,193,114,78,66
25.64,100,138,105,84,84
25.76,98,146,100,88,94
25.88,90,96,96,85,84
26,64,84,98,89,116
26.12,62,53,74,105,137
26.24,64,51,90,90,162
26.36,49,53,72,105,202
26.48,72,49,63,100,192
26.6,76,72,79,102,157
26.72,94,95,87,116,135
26.84,58,61,47,72,116
26.96,56,48,37,47,103
27.08,48,32,34,46,90
27.2,40,42,33,45,85
27.32,36,30,30,46,65
27.44,32,32,24,37,68
27.56,64,44,41,49,55
27.68,45,37,30,37,65
27.8,38,44,32,46,61
27.92,40,49,42,46,51
28.04,44,54,58,48,31
28.16,38,42,36,46,40
28.28,23,19,30,36,34
28.4,34,28,31,32,41
28.52,49,33,20,33,47
28.64,24,30,21,33,29
28.76,29,11,18,21,23
28.88,15,25,12,13,24
29,16,20,12,25,34
29.12,24,28,21,25,16
29.24,21,19,22,25,31
29.36,32,26,26,14,26
29.48,28,22,22,27,23
29.6,26,36,17,28,18
29.72,30,27,31,20,27
29.84,28,27,24,18,17
29.96,33,37,22,18,36
30,25,21,35,22,22

File: tioga1_35-65.csv
2.00,319,281,252,309,238
2.12,321,268,228,273,211
2.24,250,219,213,256,209
2.36,230,210,196,231,168
2.48,248,188,212,193,173
2.60,213,178,201,204,139
2.72,214,175,159,169,140
2.84,196,164,150,161,128
2.96,182,155,149,149,120
3.08,182,146,132,145,116
3.20,186,159,114,129,128
3.32,154,133,119,110,107
3.44,172,143,132,121,85
3.56,168,162,113,108,101
3.68,132,143,109,95,69
3.80,139,137,108,93,89
3.92,154,121,107,93,82
4.04,134,115,106,87,73
4.16,114,115,104,87,74
4.28,144,110,103,91,74
4.40,127,102,97,82,52
4.52,116,122,82,69,53
4.64,104,102,73,82,68
4.76,131,88,74,87,56
4.88,107,108,74,70,60
5.00,105,110,68,59,50
5.12,111,109,73,72,44
5.24,108,109,71,47,56
5.36,115,104,79,57,51
5.48,125,105,76,65,49
5.60,118,98,81,46,52
5.72,128,106,82,57,55
5.84,146,138,74,59,39
5.96,187,138,93,42,55
6.08,204,182,102,49,51
6.20,270,195,107,54,42
6.32,263,239,111,62,56
6.44,218,227,149,50,44
6.56,176,218,116,57,48
6.68,182,176,114,63,41
6.80,180,195,111,74,46
6.92,165,171,114,74,52
7.04,190,180,139,58,67
7.16,187,195,117,73,59
7.28,186,197,121,79,53
7.40,203,224,114,84,66
7.52,197,234,132,96,72
7.64,219,235,126,111,94
7.76,200,237,144,104,95
7.88,201,255,127,116,121
8.00,234,242,153,114,152
8.12,217,247,144,162,164
8.24,263,246,149,196,235
8.36,276,256,174,167,290
8.48,266,271,158,188,415
8.60,277,269,158,240,453
8.72,282,250,165,201,422
8.84,262,254,168,204,257
8.96,225,181,138,129,154
9.08,233,156,123,114,97
9.20,178,139,119,71,66
9.32,151,109,95,89,44
9.44,149,123,88,61,40
9.56,116,106,87,68,27
9.68,156,110,103,57,29
9.80,137,91,82,51,28
9.92,138,94,88,57,28
10.04,110,97,85,56,17
10.16,118,79,90,53,25
10.28,143,95,91,45,18
10.40,113,91,62,49,17
10.52,128,81,64,39,18
10.64,106,69,83,43,18
10.76,127,84,80,44,23
10.88,116,87,84,52,14
11.00,138,99,70,55,11
11.12,123,99,58,50,16
11.24,129,108,80,71,15
11.36,137,99,71,79,12
11.48,149,112,78,78,8
11.60,159,106,83,89,7
11.72,124,108,70,101,9
11.84,143,114,94,118,9
11.96,156,109,75,91,8
12.08,130,116,70,126,15
12.20,131,106,56,124,7
12.32,134,110,68,101,17
12.44,98,112,52,94,12
12.56,91,98,59,74,9
12.68,74,85,46,57,13
12.80,66,82,35,44,16
12.92,46,60,30,36,8
13.04,43,66,19,34,7
13.16,48,38,27,30,11
13.28,35,32,21,28,7
13.40,34,46,17,22,14
13.52,28,27,12,21,16
13.64,27,29,17,22,16
13.76,25,35,13,11,11
13.88,21,25,17,15,14
14.00,21,27,11,11,10
14.12,15,24,16,19,12
14.24,20,27,9,11,18
14.36,17,26,16,15,24
14.48,15,26,15,14,6
14.60,17,16,9,11,9
14.72,13,26,10,3,10
14.84,13,18,10,10,25
14.96,17,14,18,12,13
15.08,16,18,6,6,15
15.20,13,15,11,13,21
15.32,24,17,16,10,13
15.44,10,10,7,12,22
15.56,11,22,15,4,15
15.68,10,19,15,10,17
15.80,11,10,8,7,14
15.92,11,9,5,16,8
16.04,12,11,12,8,14
16.16,13,9,14,14,13
16.28,9,19,6,13,20
16.40,10,10,12,7,13
16.52,8,17,13,12,18
16.64,9,16,18,6,20
16.76,14,13,16,12,23
16.88,19,14,13,13,20
17.00,17,15,17,9,16
17.12,15,19,12,19,19
17.24,11,23,16,7,18
17.36,21,16,9,13,22
17.48,18,20,14,15,22
17.60,25,26,19,14,15
17.72,19,22,13,15,16
17.84,25,23,13,17,16
17.96,36,22,18,15,16
18.08,27,29,21,17,9
18.20,35,22,17,11,21
18.32,32,22,23,17,13
18.44,39,33,20,12,18
18.56,35,31,20,17,28
18.68,36,28,21,13,27
18.80,24,34,22,9,26
18.92,28,30,17,19,25
19.04,19,23,17,15,29
19.16,15,19,23,21,22
19.28,15,18,18,17,24
19.40,15,19,20,24,21
19.52,21,24,18,20,21
19.64,15,22,25,16,25
19.76,14,19,18,19,24
19.88,23,17,25,15,18
20.00,29,24,22,21,25
20.12,21,26,21,22,33
20.24,15,26,29,15,26
20.36,29,18,20,23,27
20.48,27,24,19,28,35
20.60,15,20,24,26,24
20.72,28,25,36,31,21
20.84,19,30,28,20,39
20.96,29,30,22,31,24
21.08,39,25,32,17,25
21.20,23,17,29,24,21
21.32,30,18,21,13,32
21.44,32,42,18,22,35
21.56,31,37,25,16,31
21.68,40,30,25,29,35
21.80,36,36,31,25,22
21.92,41,37,34,22,28
22.04,37,35,31,23,36
22.16,31,32,33,18,36
22.28,34,42,30,21,30
22.40,25,42,31,31,29
22.52,31,32,30,18,34
22.64,49,32,40,26,40
22.76,33,44,27,22,33
22.88,51,53,34,33,31
23.00,38,54,44,31,31
23.12,47,47,34,28,39
23.24,56,62,29,38,28
23.36,62,68,33,42,30
23.48,50,70,43,34,18
23.60,78,83,36,31,35
23.72,59,79,41,39,32
23.84,64,85,46,32,26
23.96,69,97,39,52,43
24.08,82,92,39,53,37
24.20,103,105,38,50,35
24.32,100,102,39,64,30
24.44,102,103,49,67,25
24.56,101,130,52,72,38
24.68,134,118,63,89,40
24.80,144,128,85,91,38
24.92,163,132,56,102,44
25.04,158,148,70,86,46
25.16,161,128,67,89,50
25.28,149,127,60,89,64
25.40,173,129,73,78,53
25.52,172,149,82,75,56
25.64,163,138,62,64,42
25.76,185,140,72,66,48
25.88,164,162,72,62,58
26.00,180,178,74,66,56
26.12,204,198,89,75,62
26.24,205,210,87,80,97
26.36,217,200,95,98,113
26.48,200,199,99,128,156
26.60,211,172,101,110,206
26.72,175,141,101,97,201
26.84,153,93,70,96,153
26.96,115,77,50,58,101
27.08,97,57,64,45,80
27.20,76,59,48,47,70
27.32,63,54,49,44,67
27.44,67,50,42,41,66
27.56,53,45,35,46,44
27.68,46,48,41,28,33
27.80,57,29,37,31,42
27.92,39,39,39,30,38
28.04,45,34,39,32,31
28.16,43,45,28,31,29
28.28,42,27,23,16,35
28.40,35,36,29,21,35
28.52,47,27,27,28,36
28.64,33,26,35,26,30
28.76,35,31,29,22,23
28.88,24,24,27,22,28
29.00,39,26,24,18,26
29.12,35,24,31,17,31
29.24,26,26,18,21,26
29.36,26,32,29,20,29
29.48,31,20,13,25,31
29.60,21,21,17,26,25
29.72,24,22,19,30,21
29.84,30,27,20,20,25
29.96,20,25,23,20,19
30.00,36,20,32,27,22

File: tioga1_65-90.csv
2.00,288,233,280,323,119
2.12,283,243,236,264,134
2.24,236,212,262,236,123
2.36,242,212,253,246,114
2.48,222,194,245,241,113
2.60,189,182,222,194,129
2.72,206,189,220,169,112
2.84,182,153,175,175,130
2.96,180,148,192,157,97
3.08,186,166,171,144,106
3.20,177,145,157,134,103
3.32,184,150,166,114,110
3.44,178,151,157,118,95
3.56,166,128,149,109,100
3.68,145,140,143,123,94
3.80,159,122,149,90,88
3.92,141,128,125,90,72
4.04,126,111,129,87,84
4.16,131,97,128,96,74
4.28,110,84,85,102,69
4.40,113,115,99,65,77
4.52,103,86,95,83,56
4.64,106,92,99,70,70
4.76,109,97,92,65,74
4.88,95,79,96,75,61
5.00,94,79,89,74,64
5.12,88,75,74,70,77
5.24,111,87,80,75,69
5.36,89,82,76,76,66
5.48,117,85,109,68,75
5.60,100,85,101,54,74
5.72,113,106,100,69,62
5.84,122,83,102,57,63
5.96,119,117,114,62,70
6.08,169,127,139,83,66
6.20,221,160,131,74,73
6.32,233,148,180,59,73
6.44,187,153,169,56,66
6.56,168,139,188,72,75
6.68,180,146,190,68,75
6.80,170,128,188,67,73
6.92,191,157,186,70,87
7.04,204,172,199,76,85
7.16,205,165,213,71,99
7.28,274,191,227,101,86
7.40,252,216,250,94,114
7.52,300,198,269,105,114
7.64,294,257,289,113,149
7.76,331,240,309,144,203
7.88,324,243,331,189,251
8.00,319,254,363,230,302
8.12,311,232,412,287,357
8.24,330,252,426,355,521
8.36,354,228,424,448,794
8.48,328,217,424,580,1200
8.60,347,253,463,799,1541
8.72,339,231,445,872,1094
8.84,325,188,409,817,552
8.96,267,174,319,476,290
9.08,205,145,250,274,161
9.20,189,109,225,198,123
9.32,179,106,166,128,98
9.44,150,93,168,108,54
9.56,154,88,143,87,68
9.68,132,85,145,72,37
9.80,123,74,152,58,45
9.92,133,80,130,55,39
10.04,115,65,140,40,25
10.16,128,52,111,57,41
10.28,109,74,143,48,32
10.40,107,70,127,40,24
10.52,104,64,150,45,20
10.64,109,80,144,45,25
10.76,126,63,118,39,21
10.88,126,63,157,26,23
11.00,112,64,125,32,24
11.12,122,81,147,31,20
11.24,130,59,132,40,16
11.36,121,77,156,28,14
11.48,137,73,149,23,23
11.60,139,79,140,48,13
11.72,148,87,126,41,14
11.84,113,66,158,38,10
11.96,147,64,125,45,19
12.08,133,57,166,25,21
12.20,132,76,110,28,13
12.32,99,69,111,54,15
12.44,98,68,100,39,10
12.56,87,62,81,37,15
12.68,71,61,78,29,12
12.80,51,47,47,27,17
12.92,45,42,47,25,21
13.04,28,39,34,21,8
13.16,32,35,36,25,19
13.28,29,37,31,13,16
13.40,44,30,33,15,11
13.52,21,28,16,20,19
13.64,24,26,24,23,13
13.76,22,20,21,20,8
13.88,28,19,17,14,14
14.00,20,21,18,21,18
14.12,11,18,17,15,16
14.24,19,14,21,15,13
14.36,15,26,18,13,18
14.48,19,18,21,12,14
14.60,12,22,15,15,12
14.72,13,27,10,14,14
14.84,15,14,21,11,13
14.96,15,9,13,12,19
15.08,7,24,14,14,15
15.20,11,20,12,22,18
15.32,13,20,17,8,13
15.44,9,17,15,14,16
15.56,11,15,24,9,14
15.68,8,11,13,17,19
15.80,6,15,17,15,21
15.92,9,10,13,12,19
16.04,20,12,12,16,20
16.16,11,8,8,13,13
16.28,18,15,8,17,20
16.40,18,18,12,22,20
16.52,13,15,12,14,16
16.64,10,17,14,24,13
16.76,11,13,13,18,22
16.88,14,9,6,26,21
17.00,8,14,17,22,16
17.12,22,7,10,20,32
17.24,8,16,17,26,32
17.36,13,22,15,17,31
17.48,18,17,15,14,27
17.60,25,18,16,16,29
17.72,28,20,20,24,33
17.84,24,21,16,26,21
17.96,17,20,25,24,24
18.08,19,21,18,22,14
18.20,15,23,20,15,24
18.32,16,22,23,18,21
18.44,25,14,16,24,25
18.56,26,22,30,15,21
18.68,15,30,15,16,21
18.80,15,17,14,21,24
18.92,12,15,18,17,20
19.04,18,20,21,24,25
19.16,19,21,23,16,28
19.28,18,31,24,14,34
19.40,20,14,18,20,27
19.52,27,22,22,20,26
19.64,17,25,16,33,27
19.76,22,26,21,30,27
19.88,22,22,24,20,22
20.00,26,25,20,24,30
20.12,22,23,17,29,27
20.24,21,28,12,22,29
20.36,21,24,26,18,27
20.48,23,25,18,25,30
20.60,18,35,20,22,29
20.72,22,27,17,22,21
20.84,21,31,20,23,30
20.96,27,20,19,28,34
21.08,27,28,30,30,25
21.20,24,29,27,20,27
21.32,35,29,24,31,24
21.44,22,34,25,23,27
21.56,25,26,36,23,18
21.68,29,22,31,17,34
21.80,35,38,25,34,35
21.92,35,30,25,28,28
22.04,29,26,30,25,39
22.16,41,20,36,25,33
22.28,19,40,32,26,21
22.40,36,50,28,19,34
22.52,33,30,20,23,28
22.64,37,41,35,23,32
22.76,33,32,41,28,29
22.88,28,44,41,35,44
23.00,46,46,40,29,34
23.12,40,49,41,40,36
23.24,37,46,37,37,31
23.36,49,53,41,30,30
23.48,45,55,44,45,28
23.60,44,50,58,41,38
23.72,53,75,54,37,33
23.84,53,59,61,34,33
23.96,46,76,57,38,43
24.08,64,66,52,37,29
24.20,77,69,72,34,53
24.32,66,90,77,50,27
24.44,66,97,77,53,48
24.56,95,92,84,59,41
24.68,102,84,103,56,48
24.80,101,93,92,61,46
24.92,109,75,89,67,58
25.04,123,102,103,77,68
25.16,121,121,125,96,77
25.28,127,89,111,85,76
25.40,110,112,116,83,74
25.52,104,106,116,79,84
25.64,107,114,115,92,81
25.76,130,121,141,90,72
25.88,134,121,156,91,92
26.00,165,152,136,114,104
26.12,178,158,163,128,154
26.24,175,172,187,176,251
26.36,184,170,214,247,391
26.48,185,170,237,281,543
26.60,169,149,244,416,595
26.72,149,136,197,381,478
26.84,112,81,153,262,284
26.96,78,75,116,168,190
27.08,67,51,71,114,139
27.20,55,57,68,73,92
27.32,57,42,68,73,81
27.44,57,49,52,55,53
27.56,46,49,53,61,53
27.68,48,44,40,51,60
27.80,47,38,57,57,40
27.92,41,40,62,52,44
28.04,41,38,55,36,49
28.16,46,34,44,31,44
28.28,53,21,32,39,28
28.40,53,26,34,29,42
28.52,50,42,40,41,39
28.64,32,25,33,33,30
28.76,39,25,34,25,31
28.88,35,18,37,32,36
29.00,27,33,30,32,33
29.12,33,32,35,33,26
29.24,28,23,25,23,29
29.36,30,28,24,21,14
29.48,28,28,23,21,33
29.60,32,48,27,23,26
29.72,30,34,26,24,25
29.84,35,27,21,18,23
29.96,33,34,32,30,32
30.00,33,32,35,18,21