Folder: MSE2001python/module_examples/HW/HW3/xrd_csv_files

Note: README.md
# MSE2001python
Files for the MSE2001 course Introduction to Python for Materials Engineers

The whole course can be watched at the following YouTube playlist 
https://youtu.be/aoL3whRmSfc 

[![Final video of fixing issues in your code in VS Code]
(https://img.youtube.com/vi/aoL3whRmSfc/maxresdefault.jpg)]
(https://www.youtube.com/watch?v=aoL3whRmSfc)

File: co3o4_RT_neutron.txt
x	y_obs
3.19	44030
3.69	44414
4.19	43609
4.69	53767
5.19	70465
5.69	83996
6.19	85849
6.69	82447
7.19	77736
7.69	73128
8.19	68607
8.69	63946
9.19	58614
9.69	54746
10.19	50147
10.69	46574
11.19	44869
11.69	43995
12.19	44305
12.69	44270
13.19	44059
13.69	43866
14.19	43896
14.69	43627
15.19	44058
15.69	43927
16.19	43370
16.69	43745
17.19	43432
17.69	43441
18.19	43747
18.69	43446
19.19	43342
19.69	43358
20.19	43259
20.69	43653
21.19	43385
21.69	43691
22.19	43713
22.69	43431
23.19	43094
23.69	43391
24.19	43973
24.69	43470
25.19	43528
25.69	43471
26.19	43685
26.69	43411
27.19	43700
27.69	43922
28.19	44076
28.69	43534
29.19	43987
29.69	44310
30.19	44346
30.69	46262
31.19	61751
31.69	52593
32.19	45366
32.69	44492
33.19	44120
33.69	43855
34.19	44435
34.69	43608
35.19	43708
35.69	43595
36.19	45688
36.69	44710
37.19	43481
37.69	43061
38.19	43209
38.69	42953
39.19	43190
39.69	43182
40.19	43093
40.69	42761
41.19	42596
41.69	42877
42.19	42985
42.69	42704
43.19	42727
43.69	42804
44.19	42259
44.69	43015
45.19	42463
45.69	42914
46.19	42751
46.69	42427
47.19	42791
47.69	43671
48.19	43027
48.69	42591
49.19	42683
49.69	42552
50.19	42903
50.69	42419
51.19	42960
51.69	43253
52.19	49218
52.69	47706
53.19	43023
53.69	42470
54.19	42537
54.69	42678
55.19	42311
55.69	42471
56.19	42091
56.69	42344
57.19	42288
57.69	42052
58.19	42316
58.69	42387
59.19	42449
59.69	42446
60.19	42638
60.69	42494
61.19	43320
61.69	44779
62.19	50268
62.69	47760
63.19	43784
63.69	43816
64.19	46090
64.69	59096
65.19	97555
65.69	99098
66.19	58938
66.69	46216
67.19	43573
67.69	43353
68.19	42160
68.69	40872
69.19	41187
69.69	40716
70.19	40454
70.69	40689
71.19	41096
71.69	43245
72.19	44316
72.69	42247
73.19	40950
73.69	41335
74.19	40662
74.69	40486
75.19	41298
75.69	42909
76.19	51469
76.69	76811
77.19	103935
77.69	86028
78.19	55495
78.69	45000
79.19	42250
79.69	41219
80.19	40295
80.69	39584
81.19	39298
81.69	39187
82.19	39005
82.69	38934
83.19	38573
83.69	38792
84.19	39236
84.69	40499
85.19	42502
85.69	44336
86.19	42287
86.69	39666
87.19	38384
87.69	38054
88.19	38418
88.69	38853
89.19	38462
89.69	37918
90.19	38002
90.69	38053
91.19	37569
91.69	37451
92.19	37500
92.69	37743
93.19	37675
93.69	37268
94.19	37677
94.69	37610
95.19	37550
95.69	37662
96.19	37744
96.69	37723
97.19	37374
97.69	37239
98.19	37192
98.69	37516
99.19	38240
99.69	38738
100.19	38547
100.69	37723
101.19	37433
101.69	37355
102.19	37301
102.69	37176
103.19	36823
103.69	37075
104.19	37024
104.69	37624
105.19	37641
105.69	38293
106.19	39317
106.69	42817
107.19	48929
107.69	57343
108.19	62369
108.69	60165
109.19	52328
109.69	45064
110.19	40490
110.69	38170
111.19	37538
111.69	36855
112.19	37128
112.69	36880
113.19	36926
113.69	37005
114.19	36902
114.69	36633
115.19	36342
115.69	36256
116.19	36611
116.69	36133
117.19	36212
117.69	36399
118.19	36498
118.69	36705
119.19	36258
119.69	37212
120.19	37523
120.69	38826
121.19	41545
121.69	47929
122.19	58425
122.69	72445
123.19	87495
123.69	98208
124.19	97937
124.69	87031
125.19	72576
125.69	58201
126.19	48618
126.69	43020
127.19	39746
127.69	37816
128.19	36923
128.49	36503

File: co3o4_xrd_co_source.txt
x	y_obs
16	1163
16.289	1085
16.578	1089
16.867	1119
17.156	1070
17.445	1079
17.734	1080
18.023	1137
18.312	1117
18.601	1076
18.89	1138
19.179	1175
19.468	1090
19.757	1105
20.046	1410
20.335	1127
20.624	1120
20.913	1130
21.202	1142
21.491	1168
21.78	1211
22.069	2488
22.358	1185
22.647	1200
22.936	1185
23.225	1177
23.514	1154
23.803	1140
24.092	1136
24.381	1147
24.67	1171
24.959	1152
25.248	1180
25.537	1179
25.826	1177
26.115	1159
26.404	1173
26.693	1213
26.982	1149
27.271	1148
27.56	1167
27.849	1147
28.138	1140
28.427	1184
28.716	1098
29.005	1152
29.294	1147
29.583	1108
29.872	1150
30.161	1143
30.45	1202
30.739	1167
31.028	1185
31.317	1137
31.606	1202
31.895	1126
32.184	1167
32.473	1130
32.762	1311
33.051	1402
33.34	1215
33.629	1141
33.918	1101
34.207	1148
34.496	1176
34.785	1141
35.074	1207
35.363	1115
35.652	1079
35.941	1146
36.23	1303
36.519	3116
36.808	1209
37.097	1145
37.386	1160
37.675	1157
37.964	1099
38.253	1297
38.542	1731
38.831	3959
39.12	1329
39.409	1247
39.698	1186
39.987	1197
40.276	1118
40.565	1279
40.854	1130
41.143	1173
41.432	1118
41.721	1195
42.01	1202
42.299	1375
42.588	4511
42.877	2978
43.166	4922
43.455	1258
43.744	1171
44.033	1199
44.322	1316
44.611	3065
44.9	1456
45.189	1461
45.478	1193
45.767	1170
46.056	1152
46.345	1119
46.634	1120
46.923	1163
47.212	1621
47.501	1229
47.79	1139
48.079	1101
48.368	1064
48.657	1141
48.946	1195
49.235	1325
49.524	4233
49.813	1900
50.102	1187
50.391	1135
50.68	1095
50.969	1119
51.258	1086
51.547	1075
51.836	1103
52.125	1205
52.414	1794
52.703	1672
52.992	1161
53.281	1118
53.57	1107
53.859	1163
54.148	1122
54.437	1098
54.726	1105
55.015	1147
55.304	1147
55.593	1171
55.882	1101
56.171	1135
56.46	1131
56.749	1056
57.038	1079
57.327	1061
57.616	1087
57.905	1119
58.194	1144
58.483	1090
58.772	1283
59.061	1142
59.35	1090
59.639	1072
59.928	1071
60.217	1108
60.506	1079
60.795	1106
61.084	1092
61.373	1079
61.662	1098
61.951	1041
62.24	1112
62.529	1258
62.818	1648
63.107	1251
63.396	1152
63.685	1140
63.974	1070
64.263	1027
64.552	1138
64.841	1302
65.13	1708
65.419	1200
65.708	1503
65.997	1150
66.286	1077
66.575	1095
66.864	1089
67.153	1122
67.442	1089
67.731	1098
68.02	1122
68.309	1141
68.598	1158
68.887	1368
69.176	1726
69.465	1175
69.754	1197
70.043	2015
70.332	2233
70.621	1254
70.91	1174
71.199	1096
71.488	1108
71.777	1043
72.066	1100
72.355	1145
72.644	1772
72.933	2311
73.222	1166
73.511	1094
73.8	1079
74.089	1087
74.378	1081
74.667	1071
74.956	1078
75.245	1074
75.534	1067
75.823	1040
76.112	1038
76.401	1074
76.69	1093
76.979	1143
77.268	1495
77.557	2592
77.846	1517
78.135	1318
78.424	1142
78.713	1119
79.002	1044
79.291	1075
79.58	1061
79.869	1025
80.158	1072
80.447	1053
80.736	1088
81.025	1057
81.314	1062
81.603	1110
81.892	1155
82.181	1220
82.47	1219
82.759	1093
83.048	1136
83.337	1120
83.626	1090
83.915	1096
84.204	1110
84.493	1027
84.782	1130
85.071	1054
85.36	1074
85.649	1055
85.938	1093
86.227	1057
86.516	1069
86.805	1044
87.094	1081
87.383	1077
87.672	1084
87.961	1250
88.25	1643
88.539	1271
88.828	1190
89.117	1144
89.406	1080
89.695	1066
89.984	1075
90.273	1065
90.562	1034
90.851	1041
91.14	1061
91.429	1094
91.718	1097
92.007	1073
92.296	1114
92.585	1105
92.874	1338
93.163	1698
93.452	1433
93.741	1137
94.03	1109
94.319	1185
94.608	1160
94.897	1111
95.186	1050
95.475	1060
95.764	1046
96.053	1057
96.342	1033
96.631	1072
96.92	1092
97.209	1064
97.498	1071
97.787	1092
98.076	1067
98.365	1061
98.654	1081
98.943	1130
99.232	1088
99.521	1060
99.81	1085
99.963	1193

File: xray_with_background.txt
x	y_obs	y_bkg
16	1163	1154.555
16.289	1085	1154.232
16.578	1089	1153.912
16.867	1119	1153.598
17.156	1070	1153.29
17.445	1079	1152.991
17.734	1080	1152.708
18.023	1137	1152.45
18.312	1117	1152.236
18.601	1076	1152.105
18.89	1138	1152.158
19.179	1175	1152.706
19.468	1090	1155.164
19.757	1105	1175.003
20.046	1410	1317.727
20.335	1127	1158.553
20.624	1120	1151.965
20.913	1130	1150.157
21.202	1142	1149.258
21.491	1168	1148.65
21.78	1211	1148.163
22.069	2488	1147.735
22.358	1185	1147.339
22.647	1200	1146.963
22.936	1185	1146.599
23.225	1177	1146.243
23.514	1154	1145.893
23.803	1140	1145.547
24.092	1136	1145.203
24.381	1147	1144.862
24.67	1171	1144.523
24.959	1152	1144.185
25.248	1180	1143.96
25.537	1179	1143.633
25.826	1177	1143.308
26.115	1159	1142.985
26.404	1173	1142.664
26.693	1213	1142.345
26.982	1149	1142.029
27.271	1148	1141.693
27.56	1167	1141.385
27.849	1147	1141.081
28.138	1140	1140.783
28.427	1184	1140.761
28.716	1098	1140.493
29.005	1152	1140.237
29.294	1147	1139.996
29.583	1108	1139.777
29.872	1150	1139.587
30.161	1143	1139.438
30.45	1202	1139.349
30.739	1167	1139.354
31.028	1185	1139.511
31.317	1137	1139.938
31.606	1202	1140.89
31.895	1126	1143.027
32.184	1167	1148.501
32.473	1130	1167.989
32.762	1311	1345.745
33.051	1402	1434.504
33.34	1215	1172.2
33.629	1141	1148.388
33.918	1101	1141.743
34.207	1148	1138.939
34.496	1176	1137.475
34.785	1141	1136.62
35.074	1207	1136.16
35.363	1115	1135.981
35.652	1079	1135.924
35.941	1146	1136.083
36.23	1303	1136.512
36.519	3116	1137.323
36.808	1209	1138.727
37.097	1145	1141.396
37.386	1160	1145.743
37.675	1157	1154.241
37.964	1099	1173.984
38.253	1297	1247.163
38.542	1731	1549.367
38.831	3959	3881.669
39.12	1329	1411.881
39.409	1247	1209.629
39.698	1186	1165.695
39.987	1197	1149.437
40.276	1118	1141.629
40.565	1279	1137.249
40.854	1130	1134.532
41.143	1173	1132.734
41.432	1118	1131.503
41.721	1195	1130.666
42.01	1202	1130.145
42.299	1375	1129.924
42.588	4511	1130.054
42.877	2978	1130.674
43.166	4922	1132.114
43.455	1258	1135.127
43.744	1171	1142.026
44.033	1199	1161.139
44.322	1316	1247.413
44.611	3065	3060.563
44.9	1456	1348.706
45.189	1461	1174.083
45.478	1193	1145.434
45.767	1170	1136.514
46.056	1152	1133.754
46.345	1119	1135.105
46.634	1120	1143.972
46.923	1163	1187.392
47.212	1621	1631.28
47.501	1229	1230.004
47.79	1139	1147.169
48.079	1101	1131.261
48.368	1064	1125.506
48.657	1141	1122.644
48.946	1195	1120.914
49.235	1325	1119.721
49.524	4233	1118.816
49.813	1900	1118.082
50.102	1187	1117.454
50.391	1135	1116.959
50.68	1095	1116.457
50.969	1119	1115.991
51.258	1086	1115.551
51.547	1075	1115.133
51.836	1103	1114.731
52.125	1205	1114.36
52.414	1794	1113.983
52.703	1672	1113.615
52.992	1161	1113.254
53.281	1118	1112.901
53.57	1107	1112.553
53.859	1163	1112.21
54.148	1122	1111.945
54.437	1098	1111.615
54.726	1105	1111.175
55.015	1147	1110.859
55.304	1147	1110.636
55.593	1171	1110.337
55.882	1101	1110.045
56.171	1135	1109.763
56.46	1131	1109.39
56.749	1056	1109.144
57.038	1079	1108.926
57.327	1061	1108.755
57.616	1087	1108.676
57.905	1119	1108.811
58.194	1144	1109.613
58.483	1090	1114.02
58.772	1283	1222.831
59.061	1142	1120.257
59.35	1090	1109.648
59.639	1072	1107.862
59.928	1071	1107.241
60.217	1108	1106.999
60.506	1079	1106.989
60.795	1106	1107.218
61.084	1092	1107.792
61.373	1079	1108.976
61.662	1098	1111.424
61.951	1041	1117.073
62.24	1112	1133.834
62.529	1258	1221.905
62.818	1648	1689.898
63.107	1251	1180.584
63.396	1152	1128.203
63.685	1140	1116.977
63.974	1070	1114.782
64.263	1027	1118.538
64.552	1138	1136.767
64.841	1302	1268.171
65.13	1708	1619.041
65.419	1200	1157.534
65.708	1503	1119.696
65.997	1150	1109.982
66.286	1077	1106.158
66.575	1095	1104.393
66.864	1089	1103.655
67.153	1122	1103.662
67.442	1089	1104.483
67.731	1098	1106.561
68.02	1122	1111.17
68.309	1141	1122.298
68.598	1158	1157.053
68.887	1368	1348.66
69.176	1726	1675.64
69.465	1175	1197.402
69.754	1197	1130.317
70.043	2015	1112.007
70.332	2233	1104.478
70.621	1254	1100.573
70.91	1174	1098.215
71.199	1096	1096.626
71.488	1108	1095.461
71.777	1043	1094.551
72.066	1100	1093.802
72.355	1145	1093.161
72.644	1772	1092.594
72.933	2311	1092.081
73.222	1166	1091.607
73.511	1094	1091.162
73.8	1079	1090.741
74.089	1087	1090.337
74.378	1081	1089.947
74.667	1071	1089.569
74.956	1078	1089.199
75.245	1074	1088.838
75.534	1067	1088.483
75.823	1040	1088.133
76.112	1038	1087.788
76.401	1074	1087.447
76.69	1093	1087.109
76.979	1143	1086.775
77.268	1495	1086.442
77.557	2592	1086.112
77.846	1517	1085.784
78.135	1318	1085.458
78.424	1142	1085.133
78.713	1119	1084.81
79.002	1044	1084.488
79.291	1075	1084.167
79.58	1061	1083.847
79.869	1025	1083.49
80.158	1072	1083.173
80.447	1053	1082.857
80.736	1088	1082.542
81.025	1057	1082.227
81.314	1062	1081.886
81.603	1110	1081.573
81.892	1155	1081.261
82.181	1220	1080.949
82.47	1219	1080.638
82.759	1093	1080.327
83.048	1136	1080.016
83.337	1120	1079.705
83.626	1090	1079.395
83.915	1096	1079.086
84.204	1110	1078.776
84.493	1027	1078.467
84.782	1130	1078.158
85.071	1054	1077.849
85.36	1074	1077.541
85.649	1055	1077.233
85.938	1093	1076.925
86.227	1057	1076.617
86.516	1069	1076.309
86.805	1044	1076.002
87.094	1081	1075.695
87.383	1077	1075.388
87.672	1084	1075.081
87.961	1250	1074.775
88.25	1643	1074.468
88.539	1271	1074.162
88.828	1190	1073.856
89.117	1144	1073.55
89.406	1080	1073.245
89.695	1066	1072.939
89.984	1075	1072.634
90.273	1065	1072.329
90.562	1034	1072.024
90.851	1041	1071.719
91.14	1061	1071.414
91.429	1094	1071.11
91.718	1097	1070.774
92.007	1073	1070.47
92.296	1114	1070.167
92.585	1105	1069.864
92.874	1338	1069.561
93.163	1698	1069.258
93.452	1433	1068.955
93.741	1137	1068.652
94.03	1109	1068.35
94.319	1185	1068.048
94.608	1160	1067.745
94.897	1111	1067.443
95.186	1050	1067.141
95.475	1060	1066.839
95.764	1046	1066.537
96.053	1057	1066.236
96.342	1033	1065.934
96.631	1072	1065.633
96.92	1092	1065.331
97.209	1064	1065.03
97.498	1071	1064.729
97.787	1092	1064.428
98.076	1067	1064.127
98.365	1061	1063.826
98.654	1081	1063.526
98.943	1130	1063.225
99.232	1088	1062.925
99.521	1060	1062.625
99.81	1085	1062.325
99.963	1193	1062.166