Folder: MSE2001python/module_examples/data_for_exercises

Note: README.md
# MSE2001python
Files for the MSE2001 course Introduction to Python for Materials Engineers

The whole course can be watched at the following YouTube playlist 
https://youtu.be/aoL3whRmSfc 

[![Final video of fixing issues in your code in VS Code]
(https://img.youtube.com/vi/aoL3whRmSfc/maxresdefault.jpg)]
(https://www.youtube.com/watch?v=aoL3whRmSfc)

File: XRD_Rietveld.csv
x,y_obs,weight,y_calc,y_bkg,Q,phase 1,phase 2
16,1163,0.00086,1151.37,1151.342,0.978,1.34542,2.55108
16.391,1033,0.00097,1150.956,1150.924,1.001,,
16.782,1082,0.00092,1150.55,1150.513,1.025,,
17.173,1058,0.00095,1150.157,1150.115,1.049,,
17.564,1081,0.00093,1149.785,1149.735,1.072,,
17.955,1114,0.0009,1149.452,1149.392,1.096,,
18.346,1090,0.00092,1149.195,1149.123,1.12,,
18.737,1077,0.00093,1149.124,1149.034,1.143,,
19.128,1020,0.00098,1149.643,1149.527,1.167,,
19.519,1143,0.00087,1153.501,1153.347,1.191,,
19.91,1405,0.00071,1358.206,1357.993,1.214,,
20.301,1111,0.0009,1158.203,1157.887,1.238,,
20.692,1184,0.00084,1148.977,1148.462,1.262,,
21.083,1141,0.00088,1147.621,1146.636,1.285,,
21.474,1163,0.00086,1148.326,1145.748,1.309,,
21.865,1187,0.00084,1165.573,1145.113,1.332,,
22.256,1243,0.0008,1274.364,1144.574,1.356,,
22.647,1200,0.00083,1147.454,1144.08,1.379,,
23.038,1194,0.00084,1144.768,1143.609,1.403,,
23.429,1225,0.00082,1143.731,1143.152,1.426,,
23.82,1116,0.0009,1143.05,1142.704,1.45,,
24.211,1134,0.00088,1142.491,1142.262,1.473,,
24.602,1162,0.00086,1141.987,1141.824,1.497,,
24.993,1140,0.00088,1141.617,1141.495,1.52,,
25.384,1143,0.00087,1141.168,1141.073,1.543,,
25.775,1206,0.00083,1140.731,1140.655,1.567,,
26.166,1133,0.00088,1140.336,1140.241,1.59,,
26.557,1166,0.00086,1139.918,1139.831,1.613,,
26.948,1153,0.00087,1139.508,1139.426,1.637,,
27.339,1159,0.00086,1139.083,1139.003,1.66,,
27.73,1094,0.00091,1138.691,1138.613,1.683,,
28.121,1172,0.00085,1138.311,1138.232,1.707,,
28.512,1119,0.00089,1138.22,1138.14,1.73,,
28.903,1158,0.00086,1137.893,1137.81,1.753,,
29.294,1147,0.00087,1137.595,1137.507,1.776,,
29.685,1195,0.00084,1137.338,1137.244,1.799,,
30.076,1148,0.00087,1137.145,1137.043,1.823,,
30.467,1220,0.00082,1137.055,1136.943,1.846,,
30.858,1130,0.00088,1137.15,1137.025,1.869,,
31.249,1181,0.00085,1137.612,1137.472,1.892,,
31.64,1170,0.00085,1139.049,1138.781,1.915,,
32.031,1128,0.00089,1143.075,1142.738,1.938,,
32.422,1131,0.00088,1160.546,1160.163,1.961,,
32.813,1472,0.00068,1512.254,1511.811,1.984,,
33.204,1220,0.00082,1212.886,1212.358,2.007,,
33.595,1213,0.00082,1148.418,1147.778,2.03,,
33.986,1168,0.00086,1139.603,1138.801,2.053,,
34.377,1157,0.00086,1136.931,1135.88,2.076,,
34.768,1157,0.00086,1136.042,1134.571,2.099,,
35.159,1142,0.00088,1136.387,1134.076,2.122,,
35.55,1176,0.00085,1138.252,1133.878,2.144,,
35.941,1146,0.00087,1146.326,1134.069,2.167,,
36.332,1844,0.00054,1799.175,1134.765,2.19,,
36.723,1272,0.00079,1248.514,1136.29,2.213,,
37.114,1134,0.00088,1148.832,1139.682,2.236,,
37.505,1132,0.00088,1150.676,1146.68,2.258,,
37.896,1195,0.00084,1168.261,1165.738,2.281,,
38.287,1372,0.00073,1273.111,1271.13,2.304,,
38.678,1969,0.00051,2155.506,2153.706,2.326,,
39.069,1454,0.00069,1520.861,1519.045,2.349,,
39.46,1187,0.00084,1198.182,1196.179,2.371,,
39.851,1186,0.00084,1156.172,1153.841,2.394,,
40.242,1187,0.00084,1143.541,1140.662,2.416,,
40.633,1267,0.00079,1138.626,1134.843,2.439,,
41.024,1173,0.00085,1137.104,1131.75,2.461,,
41.415,1148,0.00087,1138.35,1129.939,2.484,,
41.806,1204,0.00083,1144.584,1128.877,2.506,,
42.197,1201,0.00083,1171.889,1128.378,2.529,,
42.588,4511,0.00022,4330.749,1128.475,2.551,,
42.979,6200,0.00016,6190.095,1129.48,2.573,,
43.37,1533,0.00065,1337.413,1132.354,2.596,,
43.761,1184,0.00084,1171.903,1140.89,2.618,,
44.152,1204,0.00083,1192.079,1177.51,2.64,,
44.543,1906,0.00052,1916.258,1904.92,2.662,,
44.934,1393,0.00072,1515.03,1295.229,2.684,,
45.325,1159,0.00086,1207.958,1154.074,2.707,,
45.716,1185,0.00084,1141.707,1136.034,2.729,,
46.107,1140,0.00088,1136.041,1132.441,2.751,,
46.498,1144,0.00087,1140.195,1137.283,2.773,,
46.889,1200,0.00083,1179.689,1176.991,2.795,,
47.28,1683,0.00059,1679.947,1677.154,2.817,,
47.671,1140,0.00088,1166.845,1163.603,2.839,,
48.062,1136,0.00088,1135.27,1130.973,2.861,,
48.453,1095,0.00091,1130.342,1123.568,2.882,,
48.844,1181,0.00085,1134.534,1120.516,2.904,,
49.235,1325,0.00075,1175.796,1118.807,2.926,,
49.626,5609,0.00018,5442.733,1117.652,2.948,,
50.017,1239,0.00081,1176.368,1116.77,2.97,,
50.408,1097,0.00091,1130.172,1116.04,2.991,,
50.799,1091,0.00092,1122.706,1115.467,3.013,,
51.19,1083,0.00092,1120.259,1114.894,3.035,,
51.581,1115,0.0009,1120.227,1114.362,3.056,,
51.972,1172,0.00085,1125.286,1113.877,3.078,,
52.363,1535,0.00065,1527.486,1113.399,3.099,,
52.754,1455,0.00069,1410.611,1112.939,3.121,,
53.145,1102,0.00091,1122.244,1112.492,3.142,,
53.536,1125,0.00089,1116.084,1112.057,3.164,,
53.927,1073,0.00093,1113.969,1111.632,3.185,,
54.318,1069,0.00094,1112.814,1111.216,3.206,,
54.709,1127,0.00089,1111.97,1110.768,3.228,,
55.1,1153,0.00087,1111.342,1110.38,3.249,,
55.491,1068,0.00094,1110.915,1110.094,3.27,,
55.882,1101,0.00091,1110.464,1109.737,3.291,,
56.273,1123,0.00089,1109.961,1109.293,3.313,,
56.664,1069,0.00094,1109.652,1108.987,3.334,,
57.055,1093,0.00091,1109.543,1108.727,3.355,,
57.446,1145,0.00087,1117.974,1108.558,3.376,,
57.837,1082,0.00092,1128.835,1108.636,3.397,,
58.228,1073,0.00093,1110.579,1109.738,3.418,,
58.619,1093,0.00091,1125.005,1124.448,3.439,,
59.01,1085,0.00092,1128.078,1127.603,3.46,,
59.401,1068,0.00094,1109.609,1109.188,3.48,,
59.792,1072,0.00093,1107.962,1107.556,3.501,,
60.183,1067,0.00094,1107.518,1107.148,3.522,,
60.574,1107,0.0009,1107.551,1107.192,3.543,,
60.965,1053,0.00095,1108.082,1107.714,3.563,,
61.356,1090,0.00092,1109.513,1109.128,3.584,,
61.747,1070,0.00093,1113.278,1112.869,3.605,,
62.138,1103,0.00091,1126.12,1125.677,3.625,,
62.529,1258,0.00079,1222.397,1221.906,3.646,,
62.92,1448,0.00069,1378.307,1377.751,3.666,,
63.311,1118,0.00089,1136.739,1136.083,3.687,,
63.702,1099,0.00091,1117.98,1117.165,3.707,,
64.093,1073,0.00093,1117.149,1116.055,3.727,,
64.484,1139,0.00088,1132.078,1130.409,3.748,,
64.875,1339,0.00075,1328.28,1325.039,3.768,,
65.266,1282,0.00078,1267.156,1247.559,3.788,,
65.657,1540,0.00065,1540.169,1123.742,3.808,,
66.048,1109,0.0009,1133.067,1109.822,3.828,,
66.439,1090,0.00092,1109.377,1105.818,3.848,,
66.83,1056,0.00095,1106.629,1104.454,3.868,,
67.221,1098,0.00091,1106.335,1104.496,3.888,,
67.612,1105,0.0009,1108.018,1106.135,3.908,,
68.003,1079,0.00093,1113.355,1111.171,3.928,,
68.394,1108,0.0009,1130.897,1128.047,3.948,,
68.785,1200,0.00083,1235.202,1230.979,3.968,,
69.176,1726,0.00058,1677.074,1669.624,3.988,,
69.567,1193,0.00084,1177.479,1159.27,4.007,,
69.958,1598,0.00063,1629.96,1115.839,4.027,,
70.349,2093,0.00048,2061.663,1104.976,4.047,,
70.74,1200,0.00083,1129.991,1100.537,4.066,,
71.131,1119,0.00089,1108.791,1098.17,4.086,,
71.522,1085,0.00092,1104.815,1096.669,4.105,,
71.913,1067,0.00094,1106.151,1095.593,4.125,,
72.304,1177,0.00085,1128.153,1094.751,4.144,,
72.695,2268,0.00044,2472.064,1094.049,4.163,,
73.086,1671,0.0006,1517.277,1093.436,4.183,,
73.477,1115,0.0009,1108.168,1092.882,4.202,,
73.868,1169,0.00086,1099.176,1092.37,4.221,,
74.259,1045,0.00096,1096.198,1091.887,4.24,,
74.65,1102,0.00091,1094.793,1091.426,4.259,,
75.041,1069,0.00094,1094.084,1090.982,4.278,,
75.432,1095,0.00091,1093.874,1090.551,4.297,,
75.823,1040,0.00096,1094.277,1090.13,4.316,,
76.214,1060,0.00094,1095.875,1089.717,4.335,,
76.605,1084,0.00092,1100.895,1089.311,4.354,,
76.996,1177,0.00085,1136.199,1088.91,4.373,,
77.387,2207,0.00045,2370.451,1088.515,4.391,,
77.778,1755,0.00057,1621.505,1088.123,4.41,,
78.169,1228,0.00081,1109.864,1087.734,4.429,,
78.56,1091,0.00092,1095.871,1087.349,4.447,,
78.951,1129,0.00089,1091.672,1086.966,4.466,,
79.342,1025,0.00098,1089.635,1086.585,4.484,,
79.733,1036,0.00097,1088.398,1086.206,4.503,,
80.124,1077,0.00093,1087.494,1085.793,4.521,,
80.515,1053,0.00095,1086.839,1085.419,4.539,,
80.906,1098,0.00091,1086.354,1085.047,4.558,,
81.297,1083,0.00092,1086.671,1084.65,4.576,,
81.688,1135,0.00088,1103.521,1084.281,4.594,,
82.079,1245,0.0008,1091.877,1083.914,4.612,,
82.47,1219,0.00082,1085.245,1083.547,4.63,,
82.861,1086,0.00092,1096.789,1083.182,4.648,,
83.252,1111,0.0009,1134.824,1082.817,4.666,,
83.643,1053,0.00095,1089.282,1082.453,4.684,,
84.034,1058,0.00095,1083.293,1082.09,4.702,,
84.425,1088,0.00092,1082.65,1081.727,4.72,,
84.816,1046,0.00096,1082.226,1081.365,4.737,,
85.207,1074,0.00093,1081.897,1081.004,4.755,,
85.598,1056,0.00095,1081.644,1080.644,4.773,,
85.989,1007,0.00099,1081.491,1080.284,4.79,,
86.38,1082,0.00092,1081.51,1079.924,4.808,,
86.771,1042,0.00096,1081.893,1079.566,4.825,,
87.162,1064,0.00094,1083.245,1079.208,4.843,,
87.553,1051,0.00095,1090.842,1078.85,4.86,,
87.944,1265,0.00079,1396.862,1078.493,4.877,,
88.335,1548,0.00065,1551.621,1078.137,4.894,,
88.726,1167,0.00086,1194.367,1077.781,4.912,,
89.117,1144,0.00087,1119.455,1077.426,4.929,,
89.508,1045,0.00096,1081.832,1077.071,4.946,,
89.899,1050,0.00095,1079.219,1076.717,4.963,,
90.29,1056,0.00095,1078.263,1076.363,4.98,,
90.681,1038,0.00096,1077.728,1076.01,4.997,,
91.072,1088,0.00092,1077.435,1075.625,5.013,,
91.463,1067,0.00094,1077.492,1075.274,5.03,,
91.854,1083,0.00092,1078.147,1074.924,5.047,,
92.245,1125,0.00089,1080.632,1074.574,5.063,,
92.636,1126,0.00089,1126.955,1074.224,5.08,,
93.027,1566,0.00064,1514.046,1073.875,5.097,,
93.418,1545,0.00065,1408.678,1073.526,5.113,,
93.809,1118,0.00089,1107.398,1073.177,5.129,,
94.2,1132,0.00088,1147.711,1072.829,5.146,,
94.591,1228,0.00081,1166.644,1072.482,5.162,,
94.982,1097,0.00091,1086.105,1072.135,5.178,,
95.373,1073,0.00093,1074.246,1071.788,5.194,,
95.764,1046,0.00096,1072.913,1071.442,5.211,,
96.155,1063,0.00094,1072.115,1071.096,5.227,,
96.546,1023,0.00098,1071.513,1070.751,5.243,,
96.937,1091,0.00092,1071.007,1070.406,5.259,,
97.328,1093,0.00091,1070.552,1070.062,5.274,,
97.719,1088,0.00092,1070.128,1069.718,5.29,,
98.11,1038,0.00096,1069.724,1069.374,5.306,,
98.501,1047,0.00096,1069.335,1069.031,5.322,,
98.892,1108,0.0009,1068.949,1068.689,5.337,,
99.283,1067,0.00094,1068.574,1068.347,5.353,,
99.674,1116,0.0009,1068.208,1068.005,5.368,,
99.963,1193,0.00084,1067.94,1067.753,5.38,,